participant_id,condition,trial_num,pair_id,choice,chosen_image,confidence_1_5,rt_ms,timestamp
88507485-64f9-479d-adf9-7676cb9e2097,control,1,pair04,A,pair04_A.png,2,1107,2026-02-27T10:00:15Z
88507485-64f9-479d-adf9-7676cb9e2097,control,2,pair05,B,pair05_B.png,4,2096,2026-02-27T10:04:39Z
88507485-64f9-479d-adf9-7676cb9e2097,control,3,pair07,A,pair07_A.png,4,1206,2026-02-27T10:02:22Z
88507485-64f9-479d-adf9-7676cb9e2097,control,4,pair08,B,pair08_B.png,5,3300,2026-02-27T10:00:22Z
88507485-64f9-479d-adf9-7676cb9e2097,control,5,pair03,B,pair03_B.png,2,1501,2026-02-27T10:03:05Z
88507485-64f9-479d-adf9-7676cb9e2097,control,6,pair06,B,pair06_B.png,3,1390,2026-02-27T10:00:40Z
88507485-64f9-479d-adf9-7676cb9e2097,control,7,pair01,A,pair01_A.png,2,1491,2026-02-27T10:01:23Z
88507485-64f9-479d-adf9-7676cb9e2097,control,8,pair02,B,pair02_B.png,4,1979,2026-02-27T10:02:05Z
b6218795-9c2d-4506-b261-a3fe44700231,control,1,pair01,A,pair01_A.png,2,1131,2026-02-27T10:07:17Z
b6218795-9c2d-4506-b261-a3fe44700231,control,2,pair06,B,pair06_B.png,4,2186,2026-02-27T10:09:15Z
b6218795-9c2d-4506-b261-a3fe44700231,control,3,pair05,B,pair05_B.png,4,1459,2026-02-27T10:09:47Z
b6218795-9c2d-4506-b261-a3fe44700231,control,4,pair02,A,pair02_A.png,3,1978,2026-02-27T10:06:10Z
b6218795-9c2d-4506-b261-a3fe44700231,control,5,pair08,B,pair08_B.png,3,880,2026-02-27T10:08:36Z
b6218795-9c2d-4506-b261-a3fe44700231,control,6,pair07,B,pair07_B.png,3,1755,2026-02-27T10:09:43Z
b6218795-9c2d-4506-b261-a3fe44700231,control,7,pair04,A,pair04_A.png,3,2366,2026-02-27T10:07:16Z
b6218795-9c2d-4506-b261-a3fe44700231,control,8,pair03,A,pair03_A.png,2,3114,2026-02-27T10:09:16Z
bf8e8f19-cb5b-423a-9639-651d1c36b947,control,1,pair07,B,pair07_B.png,2,2511,2026-02-27T10:10:29Z
bf8e8f19-cb5b-423a-9639-651d1c36b947,control,2,pair04,B,pair04_B.png,4,4294,2026-02-27T10:14:32Z
bf8e8f19-cb5b-423a-9639-651d1c36b947,control,3,pair06,B,pair06_B.png,3,1894,2026-02-27T10:13:36Z
bf8e8f19-cb5b-423a-9639-651d1c36b947,control,4,pair02,A,pair02_A.png,3,2846,2026-02-27T10:13:24Z
bf8e8f19-cb5b-423a-9639-651d1c36b947,control,5,pair08,B,pair08_B.png,3,1833,2026-02-27T10:11:55Z
bf8e8f19-cb5b-423a-9639-651d1c36b947,control,6,pair01,B,pair01_B.png,3,1922,2026-02-27T10:10:30Z
bf8e8f19-cb5b-423a-9639-651d1c36b947,control,7,pair05,B,pair05_B.png,5,1228,2026-02-27T10:14:08Z
bf8e8f19-cb5b-423a-9639-651d1c36b947,control,8,pair03,B,pair03_B.png,4,1983,2026-02-27T10:14:02Z
9a544425-5d1c-434f-9293-df1917d88619,control,1,pair05,A,pair05_A.png,4,2434,2026-02-27T10:15:31Z
9a544425-5d1c-434f-9293-df1917d88619,control,2,pair03,B,pair03_B.png,4,1461,2026-02-27T10:18:49Z
9a544425-5d1c-434f-9293-df1917d88619,control,3,pair08,B,pair08_B.png,4,817,2026-02-27T10:19:36Z
9a544425-5d1c-434f-9293-df1917d88619,control,4,pair04,A,pair04_A.png,1,2409,2026-02-27T10:19:08Z
9a544425-5d1c-434f-9293-df1917d88619,control,5,pair06,A,pair06_A.png,3,649,2026-02-27T10:18:52Z
9a544425-5d1c-434f-9293-df1917d88619,control,6,pair01,B,pair01_B.png,5,3213,2026-02-27T10:19:09Z
9a544425-5d1c-434f-9293-df1917d88619,control,7,pair02,A,pair02_A.png,4,2035,2026-02-27T10:17:40Z
9a544425-5d1c-434f-9293-df1917d88619,control,8,pair07,A,pair07_A.png,4,2409,2026-02-27T10:19:20Z
eb202f66-c1df-423e-a7dd-ce63abe43350,control,1,pair06,A,pair06_A.png,4,1912,2026-02-27T10:20:41Z
eb202f66-c1df-423e-a7dd-ce63abe43350,control,2,pair04,A,pair04_A.png,4,2630,2026-02-27T10:22:40Z
eb202f66-c1df-423e-a7dd-ce63abe43350,control,3,pair03,B,pair03_B.png,4,1479,2026-02-27T10:20:37Z
eb202f66-c1df-423e-a7dd-ce63abe43350,control,4,pair05,B,pair05_B.png,3,998,2026-02-27T10:24:19Z
eb202f66-c1df-423e-a7dd-ce63abe43350,control,5,pair01,B,pair01_B.png,5,2732,2026-02-27T10:21:20Z
eb202f66-c1df-423e-a7dd-ce63abe43350,control,6,pair08,B,pair08_B.png,4,1919,2026-02-27T10:24:43Z
eb202f66-c1df-423e-a7dd-ce63abe43350,control,7,pair07,B,pair07_B.png,4,988,2026-02-27T10:22:19Z
eb202f66-c1df-423e-a7dd-ce63abe43350,control,8,pair02,B,pair02_B.png,4,4336,2026-02-27T10:24:18Z
2d89009c-7ebe-42b6-8e16-917eed48c32d,control,1,pair07,B,pair07_B.png,3,961,2026-02-27T10:29:42Z
2d89009c-7ebe-42b6-8e16-917eed48c32d,control,2,pair05,A,pair05_A.png,2,1479,2026-02-27T10:28:40Z
2d89009c-7ebe-42b6-8e16-917eed48c32d,control,3,pair02,A,pair02_A.png,4,2556,2026-02-27T10:27:07Z
2d89009c-7ebe-42b6-8e16-917eed48c32d,control,4,pair04,A,pair04_A.png,2,1457,2026-02-27T10:26:30Z
2d89009c-7ebe-42b6-8e16-917eed48c32d,control,5,pair06,A,pair06_A.png,3,2418,2026-02-27T10:25:55Z
2d89009c-7ebe-42b6-8e16-917eed48c32d,control,6,pair01,B,pair01_B.png,3,1017,2026-02-27T10:26:56Z
2d89009c-7ebe-42b6-8e16-917eed48c32d,control,7,pair03,A,pair03_A.png,5,1535,2026-02-27T10:27:22Z
2d89009c-7ebe-42b6-8e16-917eed48c32d,control,8,pair08,A,pair08_A.png,4,2572,2026-02-27T10:25:14Z
aa8f5e45-6d40-4610-b3a8-203925c22ea1,control,1,pair06,A,pair06_A.png,3,1650,2026-02-27T10:34:35Z
aa8f5e45-6d40-4610-b3a8-203925c22ea1,control,2,pair04,A,pair04_A.png,1,1254,2026-02-27T10:32:49Z
aa8f5e45-6d40-4610-b3a8-203925c22ea1,control,3,pair01,A,pair01_A.png,2,3155,2026-02-27T10:33:29Z
aa8f5e45-6d40-4610-b3a8-203925c22ea1,control,4,pair07,B,pair07_B.png,4,961,2026-02-27T10:33:14Z
aa8f5e45-6d40-4610-b3a8-203925c22ea1,control,5,pair05,B,pair05_B.png,1,1336,2026-02-27T10:30:00Z
aa8f5e45-6d40-4610-b3a8-203925c22ea1,control,6,pair08,A,pair08_A.png,4,2014,2026-02-27T10:33:46Z
aa8f5e45-6d40-4610-b3a8-203925c22ea1,control,7,pair03,B,pair03_B.png,3,1861,2026-02-27T10:32:51Z
aa8f5e45-6d40-4610-b3a8-203925c22ea1,control,8,pair02,B,pair02_B.png,4,922,2026-02-27T10:31:15Z
9cc400b1-ee2d-4fd0-b519-6122c1d0975c,control,1,pair05,B,pair05_B.png,2,1583,2026-02-27T10:36:15Z
9cc400b1-ee2d-4fd0-b519-6122c1d0975c,control,2,pair03,B,pair03_B.png,3,2224,2026-02-27T10:38:37Z
9cc400b1-ee2d-4fd0-b519-6122c1d0975c,control,3,pair06,A,pair06_A.png,5,1711,2026-02-27T10:36:02Z
9cc400b1-ee2d-4fd0-b519-6122c1d0975c,control,4,pair07,B,pair07_B.png,4,2381,2026-02-27T10:39:18Z
9cc400b1-ee2d-4fd0-b519-6122c1d0975c,control,5,pair04,A,pair04_A.png,4,1574,2026-02-27T10:37:21Z
9cc400b1-ee2d-4fd0-b519-6122c1d0975c,control,6,pair02,A,pair02_A.png,2,1528,2026-02-27T10:37:26Z
9cc400b1-ee2d-4fd0-b519-6122c1d0975c,control,7,pair08,A,pair08_A.png,4,1644,2026-02-27T10:36:49Z
9cc400b1-ee2d-4fd0-b519-6122c1d0975c,control,8,pair01,B,pair01_B.png,4,1680,2026-02-27T10:38:35Z
04252c51-8d25-4d5c-8d4f-d41e00f2615e,control,1,pair03,A,pair03_A.png,3,1995,2026-02-27T10:41:52Z
04252c51-8d25-4d5c-8d4f-d41e00f2615e,control,2,pair06,A,pair06_A.png,3,1436,2026-02-27T10:43:27Z
04252c51-8d25-4d5c-8d4f-d41e00f2615e,control,3,pair02,A,pair02_A.png,1,3583,2026-02-27T10:40:13Z
04252c51-8d25-4d5c-8d4f-d41e00f2615e,control,4,pair04,A,pair04_A.png,4,1345,2026-02-27T10:42:47Z
04252c51-8d25-4d5c-8d4f-d41e00f2615e,control,5,pair01,B,pair01_B.png,4,1294,2026-02-27T10:43:35Z
04252c51-8d25-4d5c-8d4f-d41e00f2615e,control,6,pair05,A,pair05_A.png,4,1347,2026-02-27T10:40:20Z
04252c51-8d25-4d5c-8d4f-d41e00f2615e,control,7,pair08,B,pair08_B.png,1,832,2026-02-27T10:44:48Z
04252c51-8d25-4d5c-8d4f-d41e00f2615e,control,8,pair07,A,pair07_A.png,3,1439,2026-02-27T10:40:58Z
7cffe09b-724b-4728-a7ef-ac050c55d5dd,control,1,pair04,B,pair04_B.png,4,2568,2026-02-27T10:45:52Z
7cffe09b-724b-4728-a7ef-ac050c55d5dd,control,2,pair07,B,pair07_B.png,2,1895,2026-02-27T10:49:32Z
7cffe09b-724b-4728-a7ef-ac050c55d5dd,control,3,pair02,A,pair02_A.png,4,876,2026-02-27T10:49:10Z
7cffe09b-724b-4728-a7ef-ac050c55d5dd,control,4,pair06,A,pair06_A.png,5,3907,2026-02-27T10:48:42Z
7cffe09b-724b-4728-a7ef-ac050c55d5dd,control,5,pair05,B,pair05_B.png,4,4863,2026-02-27T10:49:07Z
7cffe09b-724b-4728-a7ef-ac050c55d5dd,control,6,pair01,B,pair01_B.png,4,1538,2026-02-27T10:45:44Z
7cffe09b-724b-4728-a7ef-ac050c55d5dd,control,7,pair08,A,pair08_A.png,4,2089,2026-02-27T10:47:52Z
7cffe09b-724b-4728-a7ef-ac050c55d5dd,control,8,pair03,A,pair03_A.png,4,680,2026-02-27T10:47:54Z
b32a42d2-080e-4e1d-ae8a-6b1868b44989,control,1,pair02,B,pair02_B.png,4,3205,2026-02-27T10:54:11Z
b32a42d2-080e-4e1d-ae8a-6b1868b44989,control,2,pair04,B,pair04_B.png,3,1657,2026-02-27T10:54:57Z
b32a42d2-080e-4e1d-ae8a-6b1868b44989,control,3,pair07,A,pair07_A.png,4,1500,2026-02-27T10:52:36Z
b32a42d2-080e-4e1d-ae8a-6b1868b44989,control,4,pair01,A,pair01_A.png,4,1030,2026-02-27T10:51:34Z
b32a42d2-080e-4e1d-ae8a-6b1868b44989,control,5,pair03,A,pair03_A.png,5,2336,2026-02-27T10:52:24Z
b32a42d2-080e-4e1d-ae8a-6b1868b44989,control,6,pair06,B,pair06_B.png,3,1576,2026-02-27T10:54:33Z
b32a42d2-080e-4e1d-ae8a-6b1868b44989,control,7,pair08,B,pair08_B.png,3,2651,2026-02-27T10:50:52Z
b32a42d2-080e-4e1d-ae8a-6b1868b44989,control,8,pair05,A,pair05_A.png,2,1719,2026-02-27T10:50:26Z
e02d73c7-2ffb-42d6-a1bd-1ecd469a6318,control,1,pair06,B,pair06_B.png,4,1042,2026-02-27T10:57:35Z
e02d73c7-2ffb-42d6-a1bd-1ecd469a6318,control,2,pair03,B,pair03_B.png,4,1568,2026-02-27T10:56:55Z
e02d73c7-2ffb-42d6-a1bd-1ecd469a6318,control,3,pair02,A,pair02_A.png,2,1289,2026-02-27T10:58:39Z
e02d73c7-2ffb-42d6-a1bd-1ecd469a6318,control,4,pair08,A,pair08_A.png,4,1402,2026-02-27T10:55:41Z
e02d73c7-2ffb-42d6-a1bd-1ecd469a6318,control,5,pair01,A,pair01_A.png,4,1979,2026-02-27T10:56:58Z
e02d73c7-2ffb-42d6-a1bd-1ecd469a6318,control,6,pair04,A,pair04_A.png,4,1231,2026-02-27T10:57:15Z
e02d73c7-2ffb-42d6-a1bd-1ecd469a6318,control,7,pair07,B,pair07_B.png,2,3034,2026-02-27T10:59:38Z
e02d73c7-2ffb-42d6-a1bd-1ecd469a6318,control,8,pair05,A,pair05_A.png,4,2968,2026-02-27T10:59:51Z
95aad6db-2b37-4d53-8e69-83852c3318d2,control,1,pair06,B,pair06_B.png,3,1687,2026-02-27T11:02:08Z
95aad6db-2b37-4d53-8e69-83852c3318d2,control,2,pair02,A,pair02_A.png,3,3291,2026-02-27T11:00:10Z
95aad6db-2b37-4d53-8e69-83852c3318d2,control,3,pair08,B,pair08_B.png,3,1706,2026-02-27T11:02:22Z
95aad6db-2b37-4d53-8e69-83852c3318d2,control,4,pair03,B,pair03_B.png,4,1796,2026-02-27T11:02:58Z
95aad6db-2b37-4d53-8e69-83852c3318d2,control,5,pair07,A,pair07_A.png,4,1217,2026-02-27T11:04:13Z
95aad6db-2b37-4d53-8e69-83852c3318d2,control,6,pair01,B,pair01_B.png,5,1925,2026-02-27T11:02:41Z
95aad6db-2b37-4d53-8e69-83852c3318d2,control,7,pair04,A,pair04_A.png,4,1758,2026-02-27T11:04:25Z
95aad6db-2b37-4d53-8e69-83852c3318d2,control,8,pair05,B,pair05_B.png,4,2262,2026-02-27T11:04:41Z
5d54f311-6861-4d64-a101-65b0d54a45c6,control,1,pair02,B,pair02_B.png,2,1666,2026-02-27T11:05:58Z
5d54f311-6861-4d64-a101-65b0d54a45c6,control,2,pair07,B,pair07_B.png,3,1800,2026-02-27T11:09:20Z
5d54f311-6861-4d64-a101-65b0d54a45c6,control,3,pair05,B,pair05_B.png,2,1745,2026-02-27T11:06:14Z
5d54f311-6861-4d64-a101-65b0d54a45c6,control,4,pair01,B,pair01_B.png,5,870,2026-02-27T11:08:32Z
5d54f311-6861-4d64-a101-65b0d54a45c6,control,5,pair06,B,pair06_B.png,5,3137,2026-02-27T11:09:10Z
5d54f311-6861-4d64-a101-65b0d54a45c6,control,6,pair04,B,pair04_B.png,2,1113,2026-02-27T11:08:13Z
5d54f311-6861-4d64-a101-65b0d54a45c6,control,7,pair08,B,pair08_B.png,3,2481,2026-02-27T11:06:59Z
5d54f311-6861-4d64-a101-65b0d54a45c6,control,8,pair03,A,pair03_A.png,2,1459,2026-02-27T11:08:15Z
81c956af-b0d4-4ecf-8f18-dcc42f5cf49f,control,1,pair05,B,pair05_B.png,3,2860,2026-02-27T11:14:29Z
81c956af-b0d4-4ecf-8f18-dcc42f5cf49f,control,2,pair03,A,pair03_A.png,3,1178,2026-02-27T11:13:23Z
81c956af-b0d4-4ecf-8f18-dcc42f5cf49f,control,3,pair01,B,pair01_B.png,2,2691,2026-02-27T11:12:42Z
81c956af-b0d4-4ecf-8f18-dcc42f5cf49f,control,4,pair04,A,pair04_A.png,2,1946,2026-02-27T11:12:00Z
81c956af-b0d4-4ecf-8f18-dcc42f5cf49f,control,5,pair02,A,pair02_A.png,2,2438,2026-02-27T11:10:50Z
81c956af-b0d4-4ecf-8f18-dcc42f5cf49f,control,6,pair08,B,pair08_B.png,2,1303,2026-02-27T11:10:14Z
81c956af-b0d4-4ecf-8f18-dcc42f5cf49f,control,7,pair06,B,pair06_B.png,4,1635,2026-02-27T11:14:31Z
81c956af-b0d4-4ecf-8f18-dcc42f5cf49f,control,8,pair07,A,pair07_A.png,4,1021,2026-02-27T11:13:15Z
2f69ccd6-e16d-47f8-817e-0f75470f51e9,control,1,pair01,B,pair01_B.png,4,1748,2026-02-27T11:19:39Z
2f69ccd6-e16d-47f8-817e-0f75470f51e9,control,2,pair03,A,pair03_A.png,4,2135,2026-02-27T11:18:37Z
2f69ccd6-e16d-47f8-817e-0f75470f51e9,control,3,pair07,A,pair07_A.png,2,1168,2026-02-27T11:18:03Z
2f69ccd6-e16d-47f8-817e-0f75470f51e9,control,4,pair06,B,pair06_B.png,2,1265,2026-02-27T11:15:25Z
2f69ccd6-e16d-47f8-817e-0f75470f51e9,control,5,pair02,A,pair02_A.png,2,709,2026-02-27T11:16:52Z
2f69ccd6-e16d-47f8-817e-0f75470f51e9,control,6,pair05,B,pair05_B.png,2,2820,2026-02-27T11:16:10Z
2f69ccd6-e16d-47f8-817e-0f75470f51e9,control,7,pair08,A,pair08_A.png,2,1430,2026-02-27T11:19:56Z
2f69ccd6-e16d-47f8-817e-0f75470f51e9,control,8,pair04,A,pair04_A.png,4,1475,2026-02-27T11:16:42Z
bf0c6d69-725f-4e13-bbf4-0a18cba689e7,control,1,pair04,A,pair04_A.png,2,611,2026-02-27T11:20:58Z
bf0c6d69-725f-4e13-bbf4-0a18cba689e7,control,2,pair02,A,pair02_A.png,3,1010,2026-02-27T11:23:23Z
bf0c6d69-725f-4e13-bbf4-0a18cba689e7,control,3,pair01,A,pair01_A.png,3,1893,2026-02-27T11:22:14Z
bf0c6d69-725f-4e13-bbf4-0a18cba689e7,control,4,pair06,A,pair06_A.png,2,1273,2026-02-27T11:20:12Z
bf0c6d69-725f-4e13-bbf4-0a18cba689e7,control,5,pair08,B,pair08_B.png,2,2240,2026-02-27T11:23:57Z
bf0c6d69-725f-4e13-bbf4-0a18cba689e7,control,6,pair05,A,pair05_A.png,3,1387,2026-02-27T11:20:49Z
bf0c6d69-725f-4e13-bbf4-0a18cba689e7,control,7,pair07,A,pair07_A.png,4,2424,2026-02-27T11:25:00Z
bf0c6d69-725f-4e13-bbf4-0a18cba689e7,control,8,pair03,A,pair03_A.png,3,1054,2026-02-27T11:23:28Z
9a83c752-ce9e-4619-867c-599ea3d878ac,control,1,pair07,A,pair07_A.png,3,2391,2026-02-27T11:28:03Z
9a83c752-ce9e-4619-867c-599ea3d878ac,control,2,pair08,A,pair08_A.png,3,1266,2026-02-27T11:25:10Z
9a83c752-ce9e-4619-867c-599ea3d878ac,control,3,pair04,A,pair04_A.png,3,2316,2026-02-27T11:29:43Z
9a83c752-ce9e-4619-867c-599ea3d878ac,control,4,pair02,A,pair02_A.png,4,1574,2026-02-27T11:25:01Z
9a83c752-ce9e-4619-867c-599ea3d878ac,control,5,pair03,B,pair03_B.png,5,2073,2026-02-27T11:25:56Z
9a83c752-ce9e-4619-867c-599ea3d878ac,control,6,pair06,B,pair06_B.png,3,2347,2026-02-27T11:27:45Z
9a83c752-ce9e-4619-867c-599ea3d878ac,control,7,pair01,A,pair01_A.png,3,1700,2026-02-27T11:25:32Z
9a83c752-ce9e-4619-867c-599ea3d878ac,control,8,pair05,B,pair05_B.png,3,1052,2026-02-27T11:25:22Z
c2843cf9-6ddc-4722-9594-f4c27eb7c1ee,control,1,pair07,B,pair07_B.png,3,1230,2026-02-27T11:32:44Z
c2843cf9-6ddc-4722-9594-f4c27eb7c1ee,control,2,pair03,A,pair03_A.png,3,2213,2026-02-27T11:32:46Z
c2843cf9-6ddc-4722-9594-f4c27eb7c1ee,control,3,pair02,B,pair02_B.png,4,1820,2026-02-27T11:30:58Z
c2843cf9-6ddc-4722-9594-f4c27eb7c1ee,control,4,pair08,A,pair08_A.png,2,2193,2026-02-27T11:33:51Z
c2843cf9-6ddc-4722-9594-f4c27eb7c1ee,control,5,pair01,B,pair01_B.png,3,1398,2026-02-27T11:32:40Z
c2843cf9-6ddc-4722-9594-f4c27eb7c1ee,control,6,pair06,B,pair06_B.png,4,4318,2026-02-27T11:34:44Z
c2843cf9-6ddc-4722-9594-f4c27eb7c1ee,control,7,pair04,B,pair04_B.png,4,2203,2026-02-27T11:33:36Z
c2843cf9-6ddc-4722-9594-f4c27eb7c1ee,control,8,pair05,B,pair05_B.png,2,2010,2026-02-27T11:34:55Z
19ce069a-1fa4-427a-91b2-bd8360bcd6bc,control,1,pair03,B,pair03_B.png,2,2353,2026-02-27T11:39:47Z
19ce069a-1fa4-427a-91b2-bd8360bcd6bc,control,2,pair05,B,pair05_B.png,3,1999,2026-02-27T11:37:16Z
19ce069a-1fa4-427a-91b2-bd8360bcd6bc,control,3,pair01,B,pair01_B.png,3,2823,2026-02-27T11:36:32Z
19ce069a-1fa4-427a-91b2-bd8360bcd6bc,control,4,pair07,A,pair07_A.png,2,925,2026-02-27T11:35:15Z
19ce069a-1fa4-427a-91b2-bd8360bcd6bc,control,5,pair08,B,pair08_B.png,4,1741,2026-02-27T11:37:39Z
19ce069a-1fa4-427a-91b2-bd8360bcd6bc,control,6,pair06,A,pair06_A.png,2,977,2026-02-27T11:35:41Z
19ce069a-1fa4-427a-91b2-bd8360bcd6bc,control,7,pair02,A,pair02_A.png,5,1711,2026-02-27T11:39:22Z
19ce069a-1fa4-427a-91b2-bd8360bcd6bc,control,8,pair04,B,pair04_B.png,4,2295,2026-02-27T11:37:37Z
2075c0f9-bfe4-409c-a6f7-ab8c9f6546ec,control,1,pair07,A,pair07_A.png,4,1408,2026-02-27T11:40:03Z
2075c0f9-bfe4-409c-a6f7-ab8c9f6546ec,control,2,pair03,A,pair03_A.png,3,1861,2026-02-27T11:44:46Z
2075c0f9-bfe4-409c-a6f7-ab8c9f6546ec,control,3,pair06,B,pair06_B.png,2,3247,2026-02-27T11:44:53Z
2075c0f9-bfe4-409c-a6f7-ab8c9f6546ec,control,4,pair08,B,pair08_B.png,4,1655,2026-02-27T11:43:05Z
2075c0f9-bfe4-409c-a6f7-ab8c9f6546ec,control,5,pair05,A,pair05_A.png,4,2055,2026-02-27T11:43:22Z
2075c0f9-bfe4-409c-a6f7-ab8c9f6546ec,control,6,pair04,B,pair04_B.png,2,2224,2026-02-27T11:40:58Z
2075c0f9-bfe4-409c-a6f7-ab8c9f6546ec,control,7,pair02,A,pair02_A.png,3,2032,2026-02-27T11:40:52Z
2075c0f9-bfe4-409c-a6f7-ab8c9f6546ec,control,8,pair01,B,pair01_B.png,4,3036,2026-02-27T11:41:30Z
f35341af-4a80-4606-8d2d-54e67f2355c0,control,1,pair01,A,pair01_A.png,2,1063,2026-02-27T11:47:35Z
f35341af-4a80-4606-8d2d-54e67f2355c0,control,2,pair02,B,pair02_B.png,2,1050,2026-02-27T11:45:19Z
f35341af-4a80-4606-8d2d-54e67f2355c0,control,3,pair03,A,pair03_A.png,4,2121,2026-02-27T11:48:56Z
f35341af-4a80-4606-8d2d-54e67f2355c0,control,4,pair07,B,pair07_B.png,2,1920,2026-02-27T11:49:03Z
f35341af-4a80-4606-8d2d-54e67f2355c0,control,5,pair06,A,pair06_A.png,3,2006,2026-02-27T11:48:44Z
f35341af-4a80-4606-8d2d-54e67f2355c0,control,6,pair05,B,pair05_B.png,3,579,2026-02-27T11:48:18Z
f35341af-4a80-4606-8d2d-54e67f2355c0,control,7,pair04,A,pair04_A.png,4,3173,2026-02-27T11:45:33Z
f35341af-4a80-4606-8d2d-54e67f2355c0,control,8,pair08,B,pair08_B.png,4,1238,2026-02-27T11:48:20Z
f796187f-bad7-4eea-ad92-6dc0e159ccd0,control,1,pair07,A,pair07_A.png,3,1818,2026-02-27T11:52:38Z
f796187f-bad7-4eea-ad92-6dc0e159ccd0,control,2,pair02,A,pair02_A.png,4,1786,2026-02-27T11:51:10Z
f796187f-bad7-4eea-ad92-6dc0e159ccd0,control,3,pair04,A,pair04_A.png,4,1828,2026-02-27T11:54:29Z
f796187f-bad7-4eea-ad92-6dc0e159ccd0,control,4,pair08,A,pair08_A.png,3,1204,2026-02-27T11:51:23Z
f796187f-bad7-4eea-ad92-6dc0e159ccd0,control,5,pair01,B,pair01_B.png,4,1104,2026-02-27T11:52:01Z
f796187f-bad7-4eea-ad92-6dc0e159ccd0,control,6,pair06,A,pair06_A.png,3,2331,2026-02-27T11:52:02Z
f796187f-bad7-4eea-ad92-6dc0e159ccd0,control,7,pair05,B,pair05_B.png,5,2601,2026-02-27T11:54:52Z
f796187f-bad7-4eea-ad92-6dc0e159ccd0,control,8,pair03,A,pair03_A.png,3,1523,2026-02-27T11:51:22Z
5caf11f0-858e-4f88-879a-5ad9823325d7,control,1,pair08,B,pair08_B.png,2,970,2026-02-27T11:57:19Z
5caf11f0-858e-4f88-879a-5ad9823325d7,control,2,pair06,A,pair06_A.png,4,2995,2026-02-27T11:58:22Z
5caf11f0-858e-4f88-879a-5ad9823325d7,control,3,pair01,B,pair01_B.png,3,1655,2026-02-27T11:55:50Z
5caf11f0-858e-4f88-879a-5ad9823325d7,control,4,pair03,B,pair03_B.png,2,1275,2026-02-27T11:59:01Z
5caf11f0-858e-4f88-879a-5ad9823325d7,control,5,pair02,A,pair02_A.png,3,1745,2026-02-27T11:55:40Z
5caf11f0-858e-4f88-879a-5ad9823325d7,control,6,pair05,A,pair05_A.png,3,3914,2026-02-27T11:58:36Z
5caf11f0-858e-4f88-879a-5ad9823325d7,control,7,pair07,A,pair07_A.png,4,1059,2026-02-27T11:58:54Z
5caf11f0-858e-4f88-879a-5ad9823325d7,control,8,pair04,B,pair04_B.png,4,1933,2026-02-27T11:59:54Z
a88406e3-f27c-4cff-9fb2-046e49163325,control,1,pair05,B,pair05_B.png,4,966,2026-02-27T12:04:19Z
a88406e3-f27c-4cff-9fb2-046e49163325,control,2,pair07,A,pair07_A.png,2,1597,2026-02-27T12:00:08Z
a88406e3-f27c-4cff-9fb2-046e49163325,control,3,pair01,A,pair01_A.png,3,2039,2026-02-27T12:04:57Z
a88406e3-f27c-4cff-9fb2-046e49163325,control,4,pair08,B,pair08_B.png,2,2141,2026-02-27T12:01:29Z
a88406e3-f27c-4cff-9fb2-046e49163325,control,5,pair03,B,pair03_B.png,2,1775,2026-02-27T12:01:09Z
a88406e3-f27c-4cff-9fb2-046e49163325,control,6,pair02,B,pair02_B.png,4,1558,2026-02-27T12:01:42Z
a88406e3-f27c-4cff-9fb2-046e49163325,control,7,pair06,B,pair06_B.png,3,1238,2026-02-27T12:04:02Z
a88406e3-f27c-4cff-9fb2-046e49163325,control,8,pair04,B,pair04_B.png,5,1155,2026-02-27T12:02:49Z
b6fd9ad0-9268-42c4-9916-29be10e5ab76,ai,1,pair07,B,pair07_B.png,3,1798,2026-02-27T12:09:25Z
b6fd9ad0-9268-42c4-9916-29be10e5ab76,ai,2,pair02,B,pair02_B.png,4,1325,2026-02-27T12:05:52Z
b6fd9ad0-9268-42c4-9916-29be10e5ab76,ai,3,pair06,B,pair06_B.png,4,2044,2026-02-27T12:08:47Z
b6fd9ad0-9268-42c4-9916-29be10e5ab76,ai,4,pair08,A,pair08_A.png,4,2096,2026-02-27T12:06:21Z
b6fd9ad0-9268-42c4-9916-29be10e5ab76,ai,5,pair04,B,pair04_B.png,4,1558,2026-02-27T12:09:50Z
b6fd9ad0-9268-42c4-9916-29be10e5ab76,ai,6,pair03,A,pair03_A.png,4,1541,2026-02-27T12:05:39Z
b6fd9ad0-9268-42c4-9916-29be10e5ab76,ai,7,pair01,A,pair01_A.png,3,2073,2026-02-27T12:05:58Z
b6fd9ad0-9268-42c4-9916-29be10e5ab76,ai,8,pair05,A,pair05_A.png,4,3420,2026-02-27T12:06:49Z
e14460fa-e0d3-44e9-94cc-c13b5fe361a7,ai,1,pair08,B,pair08_B.png,4,2561,2026-02-27T12:12:57Z
e14460fa-e0d3-44e9-94cc-c13b5fe361a7,ai,2,pair03,A,pair03_A.png,3,1536,2026-02-27T12:11:29Z
e14460fa-e0d3-44e9-94cc-c13b5fe361a7,ai,3,pair07,A,pair07_A.png,3,1424,2026-02-27T12:14:12Z
e14460fa-e0d3-44e9-94cc-c13b5fe361a7,ai,4,pair01,A,pair01_A.png,4,2877,2026-02-27T12:10:44Z
e14460fa-e0d3-44e9-94cc-c13b5fe361a7,ai,5,pair02,B,pair02_B.png,4,1763,2026-02-27T12:13:29Z
e14460fa-e0d3-44e9-94cc-c13b5fe361a7,ai,6,pair04,A,pair04_A.png,3,2159,2026-02-27T12:14:24Z
e14460fa-e0d3-44e9-94cc-c13b5fe361a7,ai,7,pair06,A,pair06_A.png,5,2032,2026-02-27T12:11:06Z
e14460fa-e0d3-44e9-94cc-c13b5fe361a7,ai,8,pair05,A,pair05_A.png,5,1333,2026-02-27T12:11:24Z
9516c3ff-0b0f-4dba-a60e-e76989721a77,ai,1,pair01,A,pair01_A.png,3,1881,2026-02-27T12:17:35Z
9516c3ff-0b0f-4dba-a60e-e76989721a77,ai,2,pair05,A,pair05_A.png,4,2101,2026-02-27T12:16:27Z
9516c3ff-0b0f-4dba-a60e-e76989721a77,ai,3,pair04,B,pair04_B.png,3,3098,2026-02-27T12:15:14Z
9516c3ff-0b0f-4dba-a60e-e76989721a77,ai,4,pair07,A,pair07_A.png,5,1473,2026-02-27T12:19:52Z
9516c3ff-0b0f-4dba-a60e-e76989721a77,ai,5,pair02,B,pair02_B.png,4,2044,2026-02-27T12:17:34Z
9516c3ff-0b0f-4dba-a60e-e76989721a77,ai,6,pair06,A,pair06_A.png,4,1556,2026-02-27T12:15:30Z
9516c3ff-0b0f-4dba-a60e-e76989721a77,ai,7,pair08,B,pair08_B.png,5,1590,2026-02-27T12:17:43Z
9516c3ff-0b0f-4dba-a60e-e76989721a77,ai,8,pair03,B,pair03_B.png,2,1208,2026-02-27T12:19:47Z
35d34430-b1e5-453d-9726-551d5cedd93c,ai,1,pair05,A,pair05_A.png,4,1470,2026-02-27T12:22:07Z
35d34430-b1e5-453d-9726-551d5cedd93c,ai,2,pair07,A,pair07_A.png,3,1403,2026-02-27T12:24:23Z
35d34430-b1e5-453d-9726-551d5cedd93c,ai,3,pair06,B,pair06_B.png,4,1137,2026-02-27T12:23:54Z
35d34430-b1e5-453d-9726-551d5cedd93c,ai,4,pair01,A,pair01_A.png,4,981,2026-02-27T12:24:00Z
35d34430-b1e5-453d-9726-551d5cedd93c,ai,5,pair04,B,pair04_B.png,4,1284,2026-02-27T12:23:07Z
35d34430-b1e5-453d-9726-551d5cedd93c,ai,6,pair08,B,pair08_B.png,3,1919,2026-02-27T12:24:43Z
35d34430-b1e5-453d-9726-551d5cedd93c,ai,7,pair03,A,pair03_A.png,5,2199,2026-02-27T12:21:00Z
35d34430-b1e5-453d-9726-551d5cedd93c,ai,8,pair02,B,pair02_B.png,4,1623,2026-02-27T12:24:20Z
1a2e7fd1-2254-4579-8a96-407142eff41c,ai,1,pair03,A,pair03_A.png,3,2791,2026-02-27T12:28:21Z
1a2e7fd1-2254-4579-8a96-407142eff41c,ai,2,pair02,B,pair02_B.png,4,940,2026-02-27T12:29:32Z
1a2e7fd1-2254-4579-8a96-407142eff41c,ai,3,pair04,B,pair04_B.png,4,1101,2026-02-27T12:25:56Z
1a2e7fd1-2254-4579-8a96-407142eff41c,ai,4,pair08,A,pair08_A.png,4,2968,2026-02-27T12:25:13Z
1a2e7fd1-2254-4579-8a96-407142eff41c,ai,5,pair06,B,pair06_B.png,3,1757,2026-02-27T12:28:14Z
1a2e7fd1-2254-4579-8a96-407142eff41c,ai,6,pair01,A,pair01_A.png,5,1117,2026-02-27T12:26:17Z
1a2e7fd1-2254-4579-8a96-407142eff41c,ai,7,pair05,A,pair05_A.png,4,2089,2026-02-27T12:25:31Z
1a2e7fd1-2254-4579-8a96-407142eff41c,ai,8,pair07,A,pair07_A.png,3,1703,2026-02-27T12:29:39Z
e5cbecb8-0d0f-4267-b1f1-5047721d8bc9,ai,1,pair02,A,pair02_A.png,5,2846,2026-02-27T12:34:10Z
e5cbecb8-0d0f-4267-b1f1-5047721d8bc9,ai,2,pair05,B,pair05_B.png,5,2389,2026-02-27T12:31:02Z
e5cbecb8-0d0f-4267-b1f1-5047721d8bc9,ai,3,pair01,B,pair01_B.png,3,1618,2026-02-27T12:31:14Z
e5cbecb8-0d0f-4267-b1f1-5047721d8bc9,ai,4,pair04,A,pair04_A.png,5,1496,2026-02-27T12:32:11Z
e5cbecb8-0d0f-4267-b1f1-5047721d8bc9,ai,5,pair03,B,pair03_B.png,3,1263,2026-02-27T12:32:19Z
e5cbecb8-0d0f-4267-b1f1-5047721d8bc9,ai,6,pair07,A,pair07_A.png,5,1058,2026-02-27T12:34:31Z
e5cbecb8-0d0f-4267-b1f1-5047721d8bc9,ai,7,pair08,B,pair08_B.png,4,1449,2026-02-27T12:31:10Z
e5cbecb8-0d0f-4267-b1f1-5047721d8bc9,ai,8,pair06,A,pair06_A.png,4,676,2026-02-27T12:34:03Z
bc2a3568-39c7-49a5-b7d5-1e9fa00b32e2,ai,1,pair04,B,pair04_B.png,4,1972,2026-02-27T12:35:19Z
bc2a3568-39c7-49a5-b7d5-1e9fa00b32e2,ai,2,pair01,B,pair01_B.png,4,3183,2026-02-27T12:39:13Z
bc2a3568-39c7-49a5-b7d5-1e9fa00b32e2,ai,3,pair07,B,pair07_B.png,5,1556,2026-02-27T12:37:32Z
bc2a3568-39c7-49a5-b7d5-1e9fa00b32e2,ai,4,pair05,B,pair05_B.png,4,1917,2026-02-27T12:36:08Z
bc2a3568-39c7-49a5-b7d5-1e9fa00b32e2,ai,5,pair03,A,pair03_A.png,3,1316,2026-02-27T12:38:54Z
bc2a3568-39c7-49a5-b7d5-1e9fa00b32e2,ai,6,pair02,B,pair02_B.png,3,1542,2026-02-27T12:36:38Z
bc2a3568-39c7-49a5-b7d5-1e9fa00b32e2,ai,7,pair06,A,pair06_A.png,5,2872,2026-02-27T12:35:44Z
bc2a3568-39c7-49a5-b7d5-1e9fa00b32e2,ai,8,pair08,A,pair08_A.png,4,1420,2026-02-27T12:35:03Z
26e2fad2-0d9c-453b-b862-7bb64ea1cdf2,ai,1,pair01,A,pair01_A.png,3,1593,2026-02-27T12:41:00Z
26e2fad2-0d9c-453b-b862-7bb64ea1cdf2,ai,2,pair08,B,pair08_B.png,4,3287,2026-02-27T12:42:31Z
26e2fad2-0d9c-453b-b862-7bb64ea1cdf2,ai,3,pair06,A,pair06_A.png,4,1759,2026-02-27T12:43:11Z
26e2fad2-0d9c-453b-b862-7bb64ea1cdf2,ai,4,pair03,A,pair03_A.png,4,1952,2026-02-27T12:41:51Z
26e2fad2-0d9c-453b-b862-7bb64ea1cdf2,ai,5,pair07,A,pair07_A.png,2,2739,2026-02-27T12:44:30Z
26e2fad2-0d9c-453b-b862-7bb64ea1cdf2,ai,6,pair02,B,pair02_B.png,3,930,2026-02-27T12:44:18Z
26e2fad2-0d9c-453b-b862-7bb64ea1cdf2,ai,7,pair04,B,pair04_B.png,5,2795,2026-02-27T12:41:45Z
26e2fad2-0d9c-453b-b862-7bb64ea1cdf2,ai,8,pair05,B,pair05_B.png,3,1737,2026-02-27T12:41:07Z
de971c29-cff1-4761-86a2-a948f7768204,ai,1,pair06,A,pair06_A.png,3,2697,2026-02-27T12:45:23Z
de971c29-cff1-4761-86a2-a948f7768204,ai,2,pair02,B,pair02_B.png,4,3401,2026-02-27T12:47:26Z
de971c29-cff1-4761-86a2-a948f7768204,ai,3,pair03,B,pair03_B.png,5,974,2026-02-27T12:48:13Z
de971c29-cff1-4761-86a2-a948f7768204,ai,4,pair08,B,pair08_B.png,5,1954,2026-02-27T12:47:58Z
de971c29-cff1-4761-86a2-a948f7768204,ai,5,pair01,A,pair01_A.png,5,4639,2026-02-27T12:47:32Z
de971c29-cff1-4761-86a2-a948f7768204,ai,6,pair05,A,pair05_A.png,4,1623,2026-02-27T12:48:55Z
de971c29-cff1-4761-86a2-a948f7768204,ai,7,pair04,A,pair04_A.png,4,2151,2026-02-27T12:48:34Z
de971c29-cff1-4761-86a2-a948f7768204,ai,8,pair07,B,pair07_B.png,2,1493,2026-02-27T12:45:17Z
3e7724c3-e4e0-49fa-b60a-e76e92437588,ai,1,pair04,B,pair04_B.png,4,1814,2026-02-27T12:54:54Z
3e7724c3-e4e0-49fa-b60a-e76e92437588,ai,2,pair07,A,pair07_A.png,5,1515,2026-02-27T12:51:13Z
3e7724c3-e4e0-49fa-b60a-e76e92437588,ai,3,pair03,A,pair03_A.png,4,1276,2026-02-27T12:51:29Z
3e7724c3-e4e0-49fa-b60a-e76e92437588,ai,4,pair02,B,pair02_B.png,3,3130,2026-02-27T12:52:43Z
3e7724c3-e4e0-49fa-b60a-e76e92437588,ai,5,pair01,A,pair01_A.png,3,1130,2026-02-27T12:52:03Z
3e7724c3-e4e0-49fa-b60a-e76e92437588,ai,6,pair06,B,pair06_B.png,3,6828,2026-02-27T12:54:45Z
3e7724c3-e4e0-49fa-b60a-e76e92437588,ai,7,pair05,A,pair05_A.png,4,1593,2026-02-27T12:53:50Z
3e7724c3-e4e0-49fa-b60a-e76e92437588,ai,8,pair08,B,pair08_B.png,3,1352,2026-02-27T12:50:20Z
0ae82348-b4ff-46c1-b6bd-4015794d96c1,ai,1,pair03,B,pair03_B.png,3,1156,2026-02-27T12:56:44Z
0ae82348-b4ff-46c1-b6bd-4015794d96c1,ai,2,pair01,A,pair01_A.png,4,1367,2026-02-27T12:58:03Z
0ae82348-b4ff-46c1-b6bd-4015794d96c1,ai,3,pair04,A,pair04_A.png,5,1606,2026-02-27T12:59:00Z
0ae82348-b4ff-46c1-b6bd-4015794d96c1,ai,4,pair07,A,pair07_A.png,3,1580,2026-02-27T12:56:53Z
0ae82348-b4ff-46c1-b6bd-4015794d96c1,ai,5,pair06,B,pair06_B.png,4,2221,2026-02-27T12:57:31Z
0ae82348-b4ff-46c1-b6bd-4015794d96c1,ai,6,pair05,A,pair05_A.png,4,2855,2026-02-27T12:57:52Z
0ae82348-b4ff-46c1-b6bd-4015794d96c1,ai,7,pair08,A,pair08_A.png,5,2188,2026-02-27T12:56:26Z
0ae82348-b4ff-46c1-b6bd-4015794d96c1,ai,8,pair02,B,pair02_B.png,3,1880,2026-02-27T12:59:37Z
8ad4fbc5-3a7b-4393-9571-7cea59ae9cdf,ai,1,pair03,A,pair03_A.png,5,1330,2026-02-27T13:03:53Z
8ad4fbc5-3a7b-4393-9571-7cea59ae9cdf,ai,2,pair02,B,pair02_B.png,5,2110,2026-02-27T13:04:09Z
8ad4fbc5-3a7b-4393-9571-7cea59ae9cdf,ai,3,pair04,B,pair04_B.png,4,1871,2026-02-27T13:04:17Z
8ad4fbc5-3a7b-4393-9571-7cea59ae9cdf,ai,4,pair07,B,pair07_B.png,3,1156,2026-02-27T13:03:01Z
8ad4fbc5-3a7b-4393-9571-7cea59ae9cdf,ai,5,pair06,B,pair06_B.png,5,1558,2026-02-27T13:01:55Z
8ad4fbc5-3a7b-4393-9571-7cea59ae9cdf,ai,6,pair08,B,pair08_B.png,5,1053,2026-02-27T13:03:13Z
8ad4fbc5-3a7b-4393-9571-7cea59ae9cdf,ai,7,pair05,A,pair05_A.png,4,1151,2026-02-27T13:03:42Z
8ad4fbc5-3a7b-4393-9571-7cea59ae9cdf,ai,8,pair01,B,pair01_B.png,3,2626,2026-02-27T13:04:50Z
24810060-6724-4af0-bd03-e76164440476,ai,1,pair02,B,pair02_B.png,5,1429,2026-02-27T13:08:23Z
24810060-6724-4af0-bd03-e76164440476,ai,2,pair05,A,pair05_A.png,3,2450,2026-02-27T13:09:36Z
24810060-6724-4af0-bd03-e76164440476,ai,3,pair04,B,pair04_B.png,5,1846,2026-02-27T13:05:27Z
24810060-6724-4af0-bd03-e76164440476,ai,4,pair07,A,pair07_A.png,4,2179,2026-02-27T13:08:23Z
24810060-6724-4af0-bd03-e76164440476,ai,5,pair06,B,pair06_B.png,4,2576,2026-02-27T13:06:56Z
24810060-6724-4af0-bd03-e76164440476,ai,6,pair01,A,pair01_A.png,5,2600,2026-02-27T13:05:43Z
24810060-6724-4af0-bd03-e76164440476,ai,7,pair03,A,pair03_A.png,3,1212,2026-02-27T13:08:14Z
24810060-6724-4af0-bd03-e76164440476,ai,8,pair08,A,pair08_A.png,3,1570,2026-02-27T13:05:02Z
0468fc4e-c0f2-4dcb-95d8-fbfc1516d63e,ai,1,pair02,B,pair02_B.png,5,1694,2026-02-27T13:13:01Z
0468fc4e-c0f2-4dcb-95d8-fbfc1516d63e,ai,2,pair08,A,pair08_A.png,3,1383,2026-02-27T13:14:46Z
0468fc4e-c0f2-4dcb-95d8-fbfc1516d63e,ai,3,pair07,A,pair07_A.png,2,1253,2026-02-27T13:11:11Z
0468fc4e-c0f2-4dcb-95d8-fbfc1516d63e,ai,4,pair01,A,pair01_A.png,5,1318,2026-02-27T13:12:33Z
0468fc4e-c0f2-4dcb-95d8-fbfc1516d63e,ai,5,pair06,B,pair06_B.png,4,1137,2026-02-27T13:11:40Z
0468fc4e-c0f2-4dcb-95d8-fbfc1516d63e,ai,6,pair03,A,pair03_A.png,4,1150,2026-02-27T13:13:14Z
0468fc4e-c0f2-4dcb-95d8-fbfc1516d63e,ai,7,pair04,B,pair04_B.png,3,1340,2026-02-27T13:13:23Z
0468fc4e-c0f2-4dcb-95d8-fbfc1516d63e,ai,8,pair05,A,pair05_A.png,4,1781,2026-02-27T13:12:04Z
a967b667-33ab-4652-8485-94562e7f756a,ai,1,pair02,A,pair02_A.png,3,3757,2026-02-27T13:18:56Z
a967b667-33ab-4652-8485-94562e7f756a,ai,2,pair05,B,pair05_B.png,4,2075,2026-02-27T13:17:35Z
a967b667-33ab-4652-8485-94562e7f756a,ai,3,pair01,A,pair01_A.png,5,2239,2026-02-27T13:19:05Z
a967b667-33ab-4652-8485-94562e7f756a,ai,4,pair08,A,pair08_A.png,3,2796,2026-02-27T13:15:18Z
a967b667-33ab-4652-8485-94562e7f756a,ai,5,pair07,B,pair07_B.png,3,1939,2026-02-27T13:15:43Z
a967b667-33ab-4652-8485-94562e7f756a,ai,6,pair03,A,pair03_A.png,4,1001,2026-02-27T13:19:48Z
a967b667-33ab-4652-8485-94562e7f756a,ai,7,pair04,B,pair04_B.png,4,1722,2026-02-27T13:17:12Z
a967b667-33ab-4652-8485-94562e7f756a,ai,8,pair06,B,pair06_B.png,5,2133,2026-02-27T13:18:11Z
21571711-a0c1-4b29-9de0-365119ac87f2,ai,1,pair03,B,pair03_B.png,4,2303,2026-02-27T13:22:55Z
21571711-a0c1-4b29-9de0-365119ac87f2,ai,2,pair01,A,pair01_A.png,4,1756,2026-02-27T13:23:51Z
21571711-a0c1-4b29-9de0-365119ac87f2,ai,3,pair08,A,pair08_A.png,4,2476,2026-02-27T13:21:24Z
21571711-a0c1-4b29-9de0-365119ac87f2,ai,4,pair02,B,pair02_B.png,3,1906,2026-02-27T13:23:38Z
21571711-a0c1-4b29-9de0-365119ac87f2,ai,5,pair05,A,pair05_A.png,4,990,2026-02-27T13:23:41Z
21571711-a0c1-4b29-9de0-365119ac87f2,ai,6,pair06,A,pair06_A.png,5,1701,2026-02-27T13:20:02Z
21571711-a0c1-4b29-9de0-365119ac87f2,ai,7,pair04,A,pair04_A.png,3,1314,2026-02-27T13:23:54Z
21571711-a0c1-4b29-9de0-365119ac87f2,ai,8,pair07,A,pair07_A.png,5,2880,2026-02-27T13:23:18Z
4a13f337-37c7-491b-9e84-b7f6b7224048,ai,1,pair04,B,pair04_B.png,3,1970,2026-02-27T13:26:08Z
4a13f337-37c7-491b-9e84-b7f6b7224048,ai,2,pair06,B,pair06_B.png,4,1633,2026-02-27T13:28:18Z
4a13f337-37c7-491b-9e84-b7f6b7224048,ai,3,pair02,B,pair02_B.png,4,1000,2026-02-27T13:26:28Z
4a13f337-37c7-491b-9e84-b7f6b7224048,ai,4,pair08,B,pair08_B.png,3,1434,2026-02-27T13:25:27Z
4a13f337-37c7-491b-9e84-b7f6b7224048,ai,5,pair03,A,pair03_A.png,2,1287,2026-02-27T13:29:47Z
4a13f337-37c7-491b-9e84-b7f6b7224048,ai,6,pair01,B,pair01_B.png,4,1259,2026-02-27T13:29:10Z
4a13f337-37c7-491b-9e84-b7f6b7224048,ai,7,pair05,B,pair05_B.png,5,1386,2026-02-27T13:28:54Z
4a13f337-37c7-491b-9e84-b7f6b7224048,ai,8,pair07,A,pair07_A.png,3,1839,2026-02-27T13:27:17Z
077cad20-7d78-41f6-b418-12606c75540c,ai,1,pair03,A,pair03_A.png,2,846,2026-02-27T13:32:59Z
077cad20-7d78-41f6-b418-12606c75540c,ai,2,pair08,B,pair08_B.png,3,2618,2026-02-27T13:31:45Z
077cad20-7d78-41f6-b418-12606c75540c,ai,3,pair07,A,pair07_A.png,3,1958,2026-02-27T13:32:29Z
077cad20-7d78-41f6-b418-12606c75540c,ai,4,pair02,A,pair02_A.png,4,997,2026-02-27T13:32:06Z
077cad20-7d78-41f6-b418-12606c75540c,ai,5,pair04,B,pair04_B.png,2,1944,2026-02-27T13:33:32Z
077cad20-7d78-41f6-b418-12606c75540c,ai,6,pair01,B,pair01_B.png,4,2462,2026-02-27T13:32:22Z
077cad20-7d78-41f6-b418-12606c75540c,ai,7,pair05,A,pair05_A.png,2,1772,2026-02-27T13:30:47Z
077cad20-7d78-41f6-b418-12606c75540c,ai,8,pair06,B,pair06_B.png,3,1629,2026-02-27T13:34:33Z
25e59234-98d6-4829-a8b6-4a6d068f9ece,ai,1,pair01,A,pair01_A.png,3,1974,2026-02-27T13:37:55Z
25e59234-98d6-4829-a8b6-4a6d068f9ece,ai,2,pair03,A,pair03_A.png,3,3072,2026-02-27T13:35:08Z
25e59234-98d6-4829-a8b6-4a6d068f9ece,ai,3,pair05,A,pair05_A.png,5,938,2026-02-27T13:36:07Z
25e59234-98d6-4829-a8b6-4a6d068f9ece,ai,4,pair06,A,pair06_A.png,3,1628,2026-02-27T13:36:24Z
25e59234-98d6-4829-a8b6-4a6d068f9ece,ai,5,pair08,B,pair08_B.png,4,2457,2026-02-27T13:35:46Z
25e59234-98d6-4829-a8b6-4a6d068f9ece,ai,6,pair04,B,pair04_B.png,4,1305,2026-02-27T13:38:47Z
25e59234-98d6-4829-a8b6-4a6d068f9ece,ai,7,pair02,A,pair02_A.png,4,3228,2026-02-27T13:36:07Z
25e59234-98d6-4829-a8b6-4a6d068f9ece,ai,8,pair07,A,pair07_A.png,4,2284,2026-02-27T13:38:08Z
0a907ef3-8b66-430f-b47f-af6a16f3db5d,ai,1,pair06,B,pair06_B.png,3,826,2026-02-27T13:43:30Z
0a907ef3-8b66-430f-b47f-af6a16f3db5d,ai,2,pair03,A,pair03_A.png,3,1512,2026-02-27T13:41:11Z
0a907ef3-8b66-430f-b47f-af6a16f3db5d,ai,3,pair01,A,pair01_A.png,5,2318,2026-02-27T13:42:25Z
0a907ef3-8b66-430f-b47f-af6a16f3db5d,ai,4,pair08,A,pair08_A.png,2,2112,2026-02-27T13:44:25Z
0a907ef3-8b66-430f-b47f-af6a16f3db5d,ai,5,pair07,A,pair07_A.png,3,2875,2026-02-27T13:42:02Z
0a907ef3-8b66-430f-b47f-af6a16f3db5d,ai,6,pair04,B,pair04_B.png,4,2072,2026-02-27T13:40:06Z
0a907ef3-8b66-430f-b47f-af6a16f3db5d,ai,7,pair02,B,pair02_B.png,4,3208,2026-02-27T13:43:07Z
0a907ef3-8b66-430f-b47f-af6a16f3db5d,ai,8,pair05,A,pair05_A.png,4,1921,2026-02-27T13:41:50Z
568c7fce-3e41-48a6-829b-36ac53ddce68,ai,1,pair07,A,pair07_A.png,4,1864,2026-02-27T13:45:42Z
568c7fce-3e41-48a6-829b-36ac53ddce68,ai,2,pair02,B,pair02_B.png,5,2852,2026-02-27T13:48:20Z
568c7fce-3e41-48a6-829b-36ac53ddce68,ai,3,pair06,A,pair06_A.png,3,2084,2026-02-27T13:48:43Z
568c7fce-3e41-48a6-829b-36ac53ddce68,ai,4,pair03,A,pair03_A.png,2,1094,2026-02-27T13:48:52Z
568c7fce-3e41-48a6-829b-36ac53ddce68,ai,5,pair05,A,pair05_A.png,4,2062,2026-02-27T13:45:06Z
568c7fce-3e41-48a6-829b-36ac53ddce68,ai,6,pair04,B,pair04_B.png,2,3469,2026-02-27T13:47:12Z
568c7fce-3e41-48a6-829b-36ac53ddce68,ai,7,pair08,A,pair08_A.png,4,2415,2026-02-27T13:45:32Z
568c7fce-3e41-48a6-829b-36ac53ddce68,ai,8,pair01,A,pair01_A.png,5,1798,2026-02-27T13:45:28Z
e73f0690-8954-413b-9888-70acb99ad9fd,ai,1,pair04,B,pair04_B.png,2,561,2026-02-27T13:51:31Z
e73f0690-8954-413b-9888-70acb99ad9fd,ai,2,pair06,B,pair06_B.png,3,1666,2026-02-27T13:53:33Z
e73f0690-8954-413b-9888-70acb99ad9fd,ai,3,pair01,B,pair01_B.png,3,1911,2026-02-27T13:50:26Z
e73f0690-8954-413b-9888-70acb99ad9fd,ai,4,pair03,B,pair03_B.png,5,1748,2026-02-27T13:52:39Z
e73f0690-8954-413b-9888-70acb99ad9fd,ai,5,pair02,B,pair02_B.png,5,1129,2026-02-27T13:52:35Z
e73f0690-8954-413b-9888-70acb99ad9fd,ai,6,pair05,A,pair05_A.png,3,3668,2026-02-27T13:54:39Z
e73f0690-8954-413b-9888-70acb99ad9fd,ai,7,pair07,A,pair07_A.png,3,1668,2026-02-27T13:52:57Z
e73f0690-8954-413b-9888-70acb99ad9fd,ai,8,pair08,B,pair08_B.png,3,1130,2026-02-27T13:53:12Z
44d194ea-5e72-4a25-91bd-f23056ba6aed,ai,1,pair07,A,pair07_A.png,3,1543,2026-02-27T13:56:58Z
44d194ea-5e72-4a25-91bd-f23056ba6aed,ai,2,pair03,A,pair03_A.png,3,920,2026-02-27T13:58:42Z
44d194ea-5e72-4a25-91bd-f23056ba6aed,ai,3,pair04,B,pair04_B.png,3,1167,2026-02-27T13:57:47Z
44d194ea-5e72-4a25-91bd-f23056ba6aed,ai,4,pair06,B,pair06_B.png,4,715,2026-02-27T13:59:59Z
44d194ea-5e72-4a25-91bd-f23056ba6aed,ai,5,pair08,B,pair08_B.png,4,1563,2026-02-27T13:58:03Z
44d194ea-5e72-4a25-91bd-f23056ba6aed,ai,6,pair02,B,pair02_B.png,4,1505,2026-02-27T13:56:20Z
44d194ea-5e72-4a25-91bd-f23056ba6aed,ai,7,pair01,A,pair01_A.png,3,1978,2026-02-27T13:57:47Z
44d194ea-5e72-4a25-91bd-f23056ba6aed,ai,8,pair05,B,pair05_B.png,5,1677,2026-02-27T13:57:33Z
69adb764-faee-4a7e-bb6d-7a434c785c84,ai,1,pair03,B,pair03_B.png,4,2316,2026-02-27T14:01:41Z
69adb764-faee-4a7e-bb6d-7a434c785c84,ai,2,pair08,B,pair08_B.png,3,2293,2026-02-27T14:02:12Z
69adb764-faee-4a7e-bb6d-7a434c785c84,ai,3,pair06,A,pair06_A.png,4,1006,2026-02-27T14:01:05Z
69adb764-faee-4a7e-bb6d-7a434c785c84,ai,4,pair04,A,pair04_A.png,5,1530,2026-02-27T14:04:14Z
69adb764-faee-4a7e-bb6d-7a434c785c84,ai,5,pair01,A,pair01_A.png,4,1421,2026-02-27T14:02:23Z
69adb764-faee-4a7e-bb6d-7a434c785c84,ai,6,pair02,B,pair02_B.png,4,2270,2026-02-27T14:04:15Z
69adb764-faee-4a7e-bb6d-7a434c785c84,ai,7,pair07,A,pair07_A.png,4,1517,2026-02-27T14:01:42Z
69adb764-faee-4a7e-bb6d-7a434c785c84,ai,8,pair05,A,pair05_A.png,3,1060,2026-02-27T14:03:03Z
ebd8ee24-0816-4b91-ab72-2cbc8ac5423a,ai,1,pair01,A,pair01_A.png,5,1971,2026-02-27T14:06:59Z
ebd8ee24-0816-4b91-ab72-2cbc8ac5423a,ai,2,pair06,B,pair06_B.png,4,755,2026-02-27T14:05:28Z
ebd8ee24-0816-4b91-ab72-2cbc8ac5423a,ai,3,pair02,B,pair02_B.png,2,3107,2026-02-27T14:06:28Z
ebd8ee24-0816-4b91-ab72-2cbc8ac5423a,ai,4,pair07,B,pair07_B.png,5,3654,2026-02-27T14:09:48Z
ebd8ee24-0816-4b91-ab72-2cbc8ac5423a,ai,5,pair03,B,pair03_B.png,3,3659,2026-02-27T14:06:29Z
ebd8ee24-0816-4b91-ab72-2cbc8ac5423a,ai,6,pair04,B,pair04_B.png,4,1202,2026-02-27T14:05:00Z
ebd8ee24-0816-4b91-ab72-2cbc8ac5423a,ai,7,pair05,B,pair05_B.png,5,1583,2026-02-27T14:07:45Z
ebd8ee24-0816-4b91-ab72-2cbc8ac5423a,ai,8,pair08,B,pair08_B.png,4,1860,2026-02-27T14:05:37Z
